threshold	A	u(A)
5003	1.507344	0.000368
6557	1.507166	0.000368
5975	1.507607	0.000368
7482	1.506830	0.000368
8094	1.506700	0.000368
5562	1.508172	0.000368
6369	1.507183	0.000368
9018	1.507363	0.000368
9811	1.506263	0.000368
8765	1.507095	0.000368
8860	1.507064	0.000368
8750	1.507035	0.000368
6164	1.507729	0.000368
7030	1.506914	0.000368
5499	1.506897	0.000368
5173	1.507230	0.000368
8705	1.507067	0.000368
9852	1.507046	0.000368
8340	1.507128	0.000368
5814	1.507559	0.000368
5504	1.506908	0.000368
9633	1.506377	0.000368
8335	1.506833	0.000368
8621	1.507151	0.000368
7036	1.506957	0.000368
5077	1.507334	0.000368
7196	1.507159	0.000368
8438	1.506911	0.000368
8281	1.506465	0.000368
6800	1.506662	0.000368
5730	1.507070	0.000368
5331	1.506657	0.000368
5450	1.506978	0.000368
8965	1.507759	0.000368
8269	1.507021	0.000368
8539	1.507063	0.000368
6185	1.506856	0.000368
6564	1.507063	0.000368
6250	1.507417	0.000368
5723	1.507862	0.000368
9174	1.506780	0.000368
7828	1.507600	0.000368
6229	1.507231	0.000368
9897	1.506797	0.000368
9307	1.506838	0.000368
8494	1.506945	0.000368
6261	1.506904	0.000368
5157	1.506974	0.000368
5297	1.507525	0.000368
8932	1.507211	0.000368
7310	1.506567	0.000368
9573	1.506793	0.000368
9515	1.507293	0.000368
9314	1.506816	0.000368
9691	1.507308	0.000368
5692	1.507378	0.000368
9309	1.507200	0.000368
9883	1.506704	0.000368
8619	1.506940	0.000368
6739	1.507044	0.000368
9765	1.507211	0.000368
5812	1.507121	0.000368
8691	1.507292	0.000368
7331	1.506871	0.000368
7772	1.507195	0.000368
5466	1.507286	0.000368
8905	1.506777	0.000368
5458	1.507372	0.000368
9600	1.506223	0.000368
9306	1.507368	0.000368
5365	1.508010	0.000368
6793	1.507202	0.000368
8240	1.506721	0.000368
6510	1.507514	0.000368
8551	1.506929	0.000368
7320	1.507281	0.000368
5181	1.507003	0.000368
6346	1.506903	0.000368
9941	1.506631	0.000368
7736	1.506965	0.000368
8888	1.506434	0.000368
8708	1.507434	0.000368
7475	1.507202	0.000368
5946	1.507363	0.000368
7700	1.507197	0.000368
9738	1.506830	0.000368
5082	1.507713	0.000368
6497	1.507309	0.000368
7062	1.507307	0.000368
8081	1.507100	0.000368
9150	1.506736	0.000368
6892	1.507313	0.000368
6070	1.507319	0.000368
7660	1.507097	0.000368
9148	1.506848	0.000368
7013	1.506885	0.000368
6310	1.507230	0.000368
6201	1.507293	0.000368
6346	1.507471	0.000368
8891	1.507347	0.000368
9715	1.506148	0.000368
6827	1.506356	0.000368
8541	1.506679	0.000368
8051	1.506520	0.000368
7807	1.507196	0.000368
9284	1.506912	0.000368
5431	1.507291	0.000368
7049	1.507355	0.000368
9597	1.506804	0.000368
8629	1.507555	0.000368
5105	1.507636	0.000368
9995	1.506798	0.000368
7912	1.507746	0.000368
5036	1.507253	0.000368
8139	1.507412	0.000368
8581	1.507228	0.000368
6589	1.507203	0.000368
5070	1.507369	0.000368
9298	1.507120	0.000368
7402	1.507037	0.000368
9271	1.506914	0.000368
7605	1.507668	0.000368
7431	1.506523	0.000368
8364	1.507146	0.000368
8056	1.506812	0.000368
8856	1.506783	0.000368
9597	1.506714	0.000368
7104	1.506663	0.000368
7640	1.506961	0.000368
9929	1.507470	0.000368
6558	1.507000	0.000368
9532	1.506969	0.000368
5079	1.507481	0.000368
7106	1.506956	0.000368
8596	1.506867	0.000368
6855	1.506189	0.000368
6759	1.506695	0.000368
5509	1.506534	0.000368
6725	1.507803	0.000368
9138	1.506637	0.000368
8170	1.506480	0.000368
8960	1.507062	0.000368
7059	1.507383	0.000368
5070	1.507957	0.000368
5938	1.506742	0.000368
9016	1.506876	0.000368
9768	1.507003	0.000368
7658	1.506421	0.000368
5856	1.506695	0.000368
5222	1.507240	0.000368
9908	1.506689	0.000368
6895	1.507097	0.000368
9303	1.507016	0.000368
5476	1.507869	0.000368
6488	1.507278	0.000368
8053	1.507058	0.000368
8929	1.507636	0.000368
7237	1.506591	0.000368
6200	1.506917	0.000368
6743	1.506690	0.000368
5103	1.507246	0.000368
5959	1.507131	0.000368
8102	1.507316	0.000368
7419	1.507245	0.000368
8636	1.507094	0.000368
5791	1.507244	0.000368
9239	1.507286	0.000368
6809	1.506525	0.000368
9896	1.506990	0.000368
5534	1.507323	0.000368
5117	1.507365	0.000368
5882	1.507602	0.000368
9169	1.507074	0.000368
5613	1.506553	0.000368
5015	1.507201	0.000368
6999	1.506811	0.000368
6398	1.507054	0.000368
6854	1.506313	0.000368
8855	1.507633	0.000368
8732	1.506609	0.000368
5884	1.507281	0.000368
7142	1.507200	0.000368
5790	1.506670	0.000368
6992	1.507111	0.000368
6586	1.507214	0.000368
6483	1.507171	0.000368
9240	1.507235	0.000368
5233	1.507658	0.000368
8452	1.506714	0.000368
9086	1.506088	0.000368
8187	1.507147	0.000368
7707	1.507872	0.000368
6914	1.506720	0.000368
9944	1.506616	0.000368
5325	1.507751	0.000368
9075	1.506781	0.000368
5091	1.506855	0.000368
7682	1.507262	0.000368
5556	1.507235	0.000368
5096	1.506720	0.000368
9588	1.507174	0.000368
8322	1.507071	0.000368
7615	1.506621	0.000368
8472	1.506963	0.000368
6421	1.507300	0.000368
8364	1.506800	0.000368
5922	1.507207	0.000368
8874	1.507632	0.000368
7297	1.507365	0.000368
7669	1.507484	0.000368
9624	1.506939	0.000368
6936	1.507067	0.000368
7629	1.506841	0.000368
6444	1.507403	0.000368
6160	1.507320	0.000368
8179	1.506741	0.000368
9303	1.506821	0.000368
6725	1.507025	0.000368
6731	1.506686	0.000368
9641	1.507213	0.000368
7671	1.506861	0.000368
8580	1.506881	0.000368
9868	1.506842	0.000368
8783	1.506582	0.000368
8892	1.506594	0.000368
8260	1.506785	0.000368
5158	1.507947	0.000368
7213	1.506584	0.000368
8362	1.506413	0.000368
6700	1.506802	0.000368
6941	1.506293	0.000368
7598	1.507367	0.000368
8230	1.507724	0.000368
6094	1.507853	0.000368
7930	1.507247	0.000368
5726	1.507568	0.000368
7194	1.507327	0.000368
9147	1.507044	0.000368
9623	1.507202	0.000368
5944	1.507058	0.000368
7394	1.507174	0.000368
6981	1.507458	0.000368
7081	1.507099	0.000368
8853	1.507350	0.000368
9001	1.506968	0.000368
8612	1.506676	0.000368
8881	1.506509	0.000368
7443	1.506823	0.000368
8377	1.507035	0.000368
5266	1.506264	0.000368
6610	1.507614	0.000368
5234	1.507611	0.000368
7801	1.507633	0.000368
5612	1.507083	0.000368
6935	1.506983	0.000368
8632	1.507197	0.000368
7736	1.506717	0.000368
7968	1.506402	0.000368
5959	1.506596	0.000368
5331	1.507190	0.000368
9997	1.506897	0.000368
5674	1.507327	0.000368
6051	1.506860	0.000368
9339	1.506907	0.000368
6709	1.507349	0.000368
9941	1.506794	0.000368
9760	1.507026	0.000368
9688	1.507354	0.000368
5254	1.506958	0.000368
8725	1.507135	0.000368
7949	1.506944	0.000368
9844	1.506739	0.000368
8459	1.507017	0.000368
7205	1.506779	0.000368
6243	1.506674	0.000368
5266	1.507793	0.000368
6821	1.506782	0.000368
7121	1.507314	0.000368
6171	1.506890	0.000368
7716	1.507097	0.000368
9230	1.506948	0.000368
5993	1.506936	0.000368
7848	1.507152	0.000368
9738	1.506684	0.000368
8050	1.507414	0.000368
8655	1.507174	0.000368
9150	1.506926	0.000368
7590	1.507238	0.000368
7802	1.506896	0.000368
9760	1.507057	0.000368
7605	1.506798	0.000368
5193	1.507077	0.000368
8793	1.506952	0.000368
9100	1.506654	0.000368
5557	1.507576	0.000368
8743	1.507817	0.000368
8600	1.506944	0.000368
5163	1.507306	0.000368
8064	1.506375	0.000368
8440	1.507477	0.000368
5921	1.507277	0.000368
5028	1.507231	0.000368
5456	1.506870	0.000368
5333	1.507573	0.000368
5744	1.506524	0.000368
7159	1.507006	0.000368
8496	1.506958	0.000368
8163	1.506673	0.000368
6194	1.506583	0.000368
8968	1.507543	0.000368
9475	1.506783	0.000368
9344	1.506658	0.000368
8069	1.506971	0.000368
6578	1.506760	0.000368
8473	1.506823	0.000368
9433	1.506798	0.000368
8588	1.506603	0.000368
9166	1.507198	0.000368
5686	1.506855	0.000368
6577	1.506974	0.000368
5946	1.506998	0.000368
7025	1.507015	0.000368
8547	1.507180	0.000368
6473	1.506960	0.000368
8767	1.507000	0.000368
7938	1.507450	0.000368
8257	1.506862	0.000368
7009	1.507602	0.000368
6774	1.506855	0.000368
6466	1.507092	0.000368
5364	1.507285	0.000368
9589	1.507046	0.000368
7321	1.506403	0.000368
9273	1.506722	0.000368
5736	1.507099	0.000368
5936	1.507328	0.000368
8328	1.506996	0.000368
5229	1.507575	0.000368
8997	1.506930	0.000368
8038	1.506529	0.000368
9288	1.506998	0.000368
8614	1.506957	0.000368
6960	1.507185	0.000368
7587	1.506463	0.000368
6313	1.506887	0.000368
6604	1.507508	0.000368
7944	1.506872	0.000368
5351	1.507196	0.000368
5305	1.507787	0.000368
7632	1.506739	0.000368
8308	1.507302	0.000368
7767	1.505938	0.000368
8622	1.506534	0.000368
8110	1.506596	0.000368
8142	1.506769	0.000368
5707	1.507256	0.000368
5022	1.507320	0.000368
5702	1.507128	0.000368
5174	1.506872	0.000368
9001	1.507170	0.000368
7103	1.507071	0.000368
9356	1.507173	0.000368
7149	1.506676	0.000368
5899	1.507693	0.000368
6101	1.507158	0.000368
6739	1.506313	0.000368
9666	1.506813	0.000368
5213	1.507298	0.000368
7672	1.507331	0.000368
8181	1.506826	0.000368
9657	1.506359	0.000368
6396	1.506187	0.000368
6586	1.506741	0.000368
9807	1.507622	0.000368
7726	1.507308	0.000368
8905	1.506518	0.000368
5984	1.506198	0.000368
8316	1.507498	0.000368
6038	1.506943	0.000368
6117	1.507318	0.000368
5029	1.507211	0.000368
8717	1.506858	0.000368
6818	1.506574	0.000368
8281	1.507379	0.000368
9168	1.506943	0.000368
7837	1.506914	0.000368
8551	1.506300	0.000368
8408	1.506652	0.000368
6469	1.507306	0.000368
5372	1.507395	0.000368
7744	1.507132	0.000368
6519	1.507131	0.000368
8969	1.507141	0.000368
8186	1.506406	0.000368
6327	1.506839	0.000368
8405	1.506704	0.000368
8293	1.507007	0.000368
9429	1.507478	0.000368
7022	1.507201	0.000368
7334	1.506467	0.000368
6880	1.507247	0.000368
5031	1.507709	0.000368
8934	1.507102	0.000368
6960	1.507201	0.000368
8338	1.507229	0.000368
9384	1.506882	0.000368
8714	1.507055	0.000368
9029	1.506731	0.000368
5029	1.507699	0.000368
7854	1.506661	0.000368
7949	1.507055	0.000368
8945	1.506896	0.000368
9997	1.507054	0.000368
7643	1.506642	0.000368
9493	1.507223	0.000368
7703	1.507361	0.000368
5212	1.507175	0.000368
7937	1.506884	0.000368
6075	1.507301	0.000368
8789	1.507799	0.000368
9142	1.507690	0.000368
5695	1.507552	0.000368
8726	1.507323	0.000368
8739	1.507311	0.000368
8284	1.506916	0.000368
9766	1.506619	0.000368
9288	1.507110	0.000368
7200	1.507051	0.000368
5547	1.507385	0.000368
9043	1.506916	0.000368
5811	1.506813	0.000368
7535	1.506734	0.000368
8437	1.507062	0.000368
5505	1.507265	0.000368
6369	1.506284	0.000368
5049	1.507301	0.000368
8402	1.506368	0.000368
6917	1.507902	0.000368
6484	1.507495	0.000368
5214	1.506961	0.000368
7206	1.507796	0.000368
7694	1.506702	0.000368
8888	1.507412	0.000368
5820	1.506826	0.000368
8496	1.506876	0.000368
5369	1.506647	0.000368
5116	1.507403	0.000368
5669	1.507177	0.000368
7131	1.507551	0.000368
6725	1.507258	0.000368
5511	1.507716	0.000368
9373	1.506904	0.000368
8086	1.506974	0.000368
7443	1.506674	0.000368
7911	1.507170	0.000368
9695	1.507433	0.000368
9262	1.506592	0.000368
5382	1.507156	0.000368
7795	1.506913	0.000368
5909	1.507281	0.000368
9110	1.507115	0.000368
5723	1.507398	0.000368
5766	1.507798	0.000368
7354	1.507077	0.000368
7161	1.506905	0.000368
5193	1.507058	0.000368
9232	1.507218	0.000368
7954	1.506937	0.000368
5417	1.507258	0.000368
7293	1.506371	0.000368
8802	1.506756	0.000368
8167	1.506799	0.000368
6283	1.507511	0.000368
6071	1.506952	0.000368
5522	1.506766	0.000368
8110	1.507355	0.000368
5877	1.507661	0.000368
6616	1.506057	0.000368
6884	1.506241	0.000368
8131	1.506583	0.000368
8988	1.507226	0.000368
5925	1.506994	0.000368
5494	1.507745	0.000368
5446	1.506836	0.000368
8097	1.506829	0.000368
7591	1.507139	0.000368
5087	1.507258	0.000368
9131	1.507084	0.000368
7481	1.506701	0.000368
9983	1.507468	0.000368
6315	1.507196	0.000368
5173	1.507605	0.000368
9104	1.506854	0.000368
8446	1.506582	0.000368
8846	1.507645	0.000368
8701	1.507316	0.000368
7500	1.506587	0.000368
6201	1.507558	0.000368
8289	1.506946	0.000368
9274	1.507205	0.000368
7830	1.506954	0.000368
9784	1.506674	0.000368
5120	1.507442	0.000368
6486	1.507482	0.000368
5620	1.506883	0.000368
5225	1.507209	0.000368
8662	1.507380	0.000368
7252	1.506227	0.000368
8086	1.507116	0.000368
5498	1.507277	0.000368
7001	1.506982	0.000368
5894	1.506750	0.000368
7024	1.506882	0.000368
5201	1.507826	0.000368
8172	1.506953	0.000368
5898	1.507601	0.000368
5668	1.506717	0.000368
5539	1.506922	0.000368
8330	1.506933	0.000368
7433	1.506546	0.000368
9249	1.506644	0.000368
8897	1.507213	0.000368
7387	1.506660	0.000368
9874	1.506346	0.000368
5907	1.507063	0.000368
6016	1.507151	0.000368
6957	1.507515	0.000368
9721	1.506991	0.000368
6562	1.506959	0.000368
7177	1.508065	0.000368
8051	1.507060	0.000368
5553	1.507580	0.000368
9786	1.507587	0.000368
6285	1.507227	0.000368
8441	1.507048	0.000368
9918	1.507516	0.000368
7279	1.507262	0.000368
6719	1.507499	0.000368
5446	1.507148	0.000368
8922	1.507294	0.000368
6127	1.506888	0.000368
9232	1.506978	0.000368
8162	1.506704	0.000368
9041	1.506806	0.000368
5881	1.507103	0.000368
7527	1.507221	0.000368
7790	1.506689	0.000368
6187	1.506919	0.000368
9717	1.506775	0.000368
9236	1.507278	0.000368
5141	1.507644	0.000368
9217	1.506966	0.000368
9279	1.507044	0.000368
8692	1.506750	0.000368
8041	1.506918	0.000368
6214	1.507523	0.000368
6494	1.506908	0.000368
7090	1.507696	0.000368
6544	1.507190	0.000368
5091	1.507259	0.000368
7857	1.506867	0.000368
5841	1.506889	0.000368
8550	1.507064	0.000368
8117	1.507249	0.000368
8552	1.507262	0.000368
8074	1.507215	0.000368
8103	1.506986	0.000368
9959	1.507391	0.000368
9202	1.507529	0.000368
9286	1.506739	0.000368
9019	1.506930	0.000368
6381	1.506777	0.000368
9454	1.506934	0.000368
7535	1.507404	0.000368
5972	1.506094	0.000368
9914	1.507029	0.000368
6469	1.507084	0.000368
9813	1.507260	0.000368
8618	1.507574	0.000368
5283	1.507007	0.000368
6992	1.508098	0.000368
7769	1.506707	0.000368
7695	1.507027	0.000368
8352	1.506491	0.000368
5286	1.506903	0.000368
9020	1.506597	0.000368
5648	1.507566	0.000368
7666	1.507116	0.000368
8351	1.506462	0.000368
6419	1.507059	0.000368
8243	1.506741	0.000368
9129	1.506790	0.000368
9660	1.506820	0.000368
5286	1.507036	0.000368
9277	1.506752	0.000368
9900	1.507204	0.000368
6256	1.507130	0.000368
9022	1.506949	0.000368
8949	1.506956	0.000368
7527	1.507072	0.000368
5031	1.507455	0.000368
5503	1.506917	0.000368
5904	1.507286	0.000368
5216	1.506935	0.000368
9102	1.506933	0.000368
8176	1.507015	0.000368
7914	1.506792	0.000368
6100	1.506901	0.000368
9267	1.506405	0.000368
5134	1.506798	0.000368
5107	1.507587	0.000368
6872	1.506777	0.000368
8925	1.507277	0.000368
8065	1.507454	0.000368
5135	1.507374	0.000368
9119	1.506661	0.000368
7720	1.506786	0.000368
9425	1.506577	0.000368
5068	1.506990	0.000368
9070	1.506796	0.000368
7004	1.507198	0.000368
5230	1.507470	0.000368
6845	1.507209	0.000368
7759	1.506435	0.000368
5570	1.507493	0.000368
5884	1.506937	0.000368
8073	1.507679	0.000368
5002	1.508194	0.000368
8447	1.506193	0.000368
7728	1.506757	0.000368
6431	1.507052	0.000368
8145	1.506957	0.000368
9112	1.506533	0.000368
5238	1.507373	0.000368
6081	1.507506	0.000368
6139	1.507268	0.000368
5895	1.506979	0.000368
5238	1.507082	0.000368
8467	1.506272	0.000368
6758	1.506907	0.000368
6444	1.507014	0.000368
7995	1.507026	0.000368
7697	1.507317	0.000368
7414	1.506664	0.000368
5807	1.507489	0.000368
5133	1.508211	0.000368
8572	1.507141	0.000368
7254	1.506996	0.000368
8519	1.507011	0.000368
7289	1.507421	0.000368
6058	1.507365	0.000368
8636	1.507210	0.000368
7739	1.506811	0.000368
7204	1.507211	0.000368
8235	1.506848	0.000368
6719	1.506950	0.000368
9928	1.506965	0.000368
6551	1.507590	0.000368
6390	1.507201	0.000368
8576	1.507348	0.000368
9224	1.506282	0.000368
7374	1.507397	0.000368
8568	1.506535	0.000368
9203	1.506665	0.000368
9290	1.507160	0.000368
7530	1.507046	0.000368
7838	1.507443	0.000368
7938	1.506561	0.000368
9527	1.506404	0.000368
5635	1.507517	0.000368
7317	1.507635	0.000368
5212	1.507104	0.000368
9728	1.507334	0.000368
5187	1.507701	0.000368
5077	1.506766	0.000368
8094	1.507341	0.000368
6183	1.506954	0.000368
6492	1.507300	0.000368
5393	1.506849	0.000368
6635	1.507429	0.000368
8233	1.507472	0.000368
6473	1.507405	0.000368
7748	1.506806	0.000368
7549	1.506554	0.000368
5094	1.507002	0.000368
9919	1.506248	0.000368
5020	1.506935	0.000368
9280	1.507096	0.000368
6714	1.507485	0.000368
6497	1.506682	0.000368
5091	1.507099	0.000368
5738	1.507638	0.000368
6891	1.507082	0.000368
8019	1.507080	0.000368
7109	1.506889	0.000368
6879	1.506798	0.000368
9192	1.507411	0.000368
9227	1.506694	0.000368
6793	1.507482	0.000368
6585	1.507182	0.000368
8019	1.507206	0.000368
7841	1.506450	0.000368
5308	1.507842	0.000368
7391	1.506859	0.000368
6264	1.506345	0.000368
8948	1.506482	0.000368
9451	1.507084	0.000368
5233	1.507589	0.000368
8595	1.506971	0.000368
5759	1.507269	0.000368
6842	1.507394	0.000368
5947	1.506851	0.000368
9699	1.506493	0.000368
5091	1.507203	0.000368
5675	1.507230	0.000368
7865	1.506564	0.000368
6546	1.506812	0.000368
7320	1.507480	0.000368
7361	1.506656	0.000368
7755	1.507127	0.000368
7058	1.506871	0.000368
6500	1.507332	0.000368
9179	1.507272	0.000368
6885	1.507351	0.000368
7572	1.506312	0.000368
6473	1.507662	0.000368
6520	1.507008	0.000368
7646	1.507938	0.000368
6644	1.507608	0.000368
7659	1.506878	0.000368
6673	1.507017	0.000368
5776	1.507097	0.000368
6988	1.506944	0.000368
8901	1.506694	0.000368
7145	1.507299	0.000368
5331	1.508268	0.000368
7235	1.507011	0.000368
9150	1.507584	0.000368
7111	1.506912	0.000368
5733	1.507303	0.000368
7926	1.507102	0.000368
5812	1.506914	0.000368
6151	1.507567	0.000368
6025	1.507369	0.000368
8847	1.507113	0.000368
5111	1.507259	0.000368
8654	1.506736	0.000368
7429	1.506799	0.000368
7165	1.507526	0.000368
8104	1.506871	0.000368
6258	1.507181	0.000368
7909	1.507292	0.000368
5610	1.506887	0.000368
6564	1.507568	0.000368
8502	1.507338	0.000368
5419	1.507102	0.000368
9345	1.506506	0.000368
8030	1.506807	0.000368
7787	1.507337	0.000368
5727	1.507009	0.000368
6900	1.507481	0.000368
5083	1.507066	0.000368
5613	1.506610	0.000368
5677	1.507047	0.000368
8957	1.506585	0.000368
8336	1.506879	0.000368
7797	1.506744	0.000368
8572	1.506906	0.000368
7473	1.507526	0.000368
6097	1.507453	0.000368
7903	1.506349	0.000368
6104	1.507045	0.000368
7167	1.507008	0.000368
8366	1.507249	0.000368
9639	1.506400	0.000368
5663	1.507034	0.000368
6775	1.507218	0.000368
10000	1.506850	0.000368
5414	1.506877	0.000368
8592	1.507336	0.000368
6438	1.507241	0.000368
9310	1.506727	0.000368
5380	1.506926	0.000368
5231	1.507418	0.000368
6982	1.507135	0.000368
5132	1.507721	0.000368
7236	1.506738	0.000368
6161	1.507072	0.000368
7818	1.506653	0.000368
8808	1.507468	0.000368
5837	1.507229	0.000368
8602	1.506768	0.000368
8908	1.506787	0.000368
6974	1.506897	0.000368
6895	1.507205	0.000368
8902	1.506653	0.000368
7327	1.507062	0.000368
7181	1.507049	0.000368
9665	1.507025	0.000368
9131	1.506968	0.000368
7341	1.506865	0.000368
7801	1.507906	0.000368
6140	1.507344	0.000368
5248	1.507248	0.000368
6914	1.507099	0.000368
6545	1.507262	0.000368
7107	1.506754	0.000368
5975	1.507310	0.000368
9424	1.506273	0.000368
9466	1.507094	0.000368
8250	1.506670	0.000368
9029	1.506894	0.000368
8212	1.507162	0.000368
6647	1.506927	0.000368
5764	1.507359	0.000368
8217	1.506783	0.000368
6120	1.506726	0.000368
5200	1.507143	0.000368
6700	1.506809	0.000368
9525	1.506783	0.000368
5181	1.506761	0.000368
9335	1.506413	0.000368
8480	1.507482	0.000368
6944	1.507136	0.000368
5385	1.507218	0.000368
5810	1.506654	0.000368
8004	1.507688	0.000368
5580	1.507103	0.000368
8613	1.507157	0.000368
6411	1.507437	0.000368
7676	1.507223	0.000368
6834	1.506847	0.000368
9326	1.507131	0.000368
5204	1.507515	0.000368
7213	1.507435	0.000368
8367	1.507038	0.000368
5118	1.507049	0.000368
6680	1.506766	0.000368
8041	1.507061	0.000368
5044	1.507251	0.000368
7558	1.507102	0.000368
8945	1.506616	0.000368
7017	1.507449	0.000368
6675	1.507347	0.000368
9969	1.506491	0.000368
8531	1.507494	0.000368
7562	1.507280	0.000368
9973	1.507289	0.000368
7112	1.506980	0.000368
7955	1.507012	0.000368
7779	1.507132	0.000368
8550	1.507686	0.000368
5202	1.507794	0.000368
8517	1.506920	0.000368
8760	1.506735	0.000368
7397	1.507252	0.000368
9692	1.506817	0.000368
5208	1.507326	0.000368
5346	1.507552	0.000368
8156	1.506672	0.000368
6788	1.506405	0.000368
5810	1.506714	0.000368
8325	1.506579	0.000368
7756	1.506787	0.000368
9077	1.506902	0.000368
9424	1.506894	0.000368
6054	1.507529	0.000368
5534	1.507088	0.000368
6367	1.507248	0.000368
7745	1.506992	0.000368
8559	1.506462	0.000368
5365	1.507782	0.000368
7046	1.506781	0.000368
8674	1.507127	0.000368
5684	1.507132	0.000368
6615	1.507392	0.000368
8795	1.506853	0.000368
9935	1.506947	0.000368
7950	1.507168	0.000368
7648	1.507295	0.000368
7715	1.506780	0.000368
9413	1.507625	0.000368
8647	1.507192	0.000368
8631	1.507233	0.000368
7686	1.506618	0.000368
7216	1.507458	0.000368
7599	1.506877	0.000368
7314	1.507205	0.000368
8039	1.507039	0.000368
5169	1.507270	0.000368
5042	1.507037	0.000368
8639	1.506847	0.000368
7448	1.507277	0.000368
8102	1.506658	0.000368
7837	1.507126	0.000368
6373	1.507018	0.000368
7016	1.507624	0.000368
8766	1.506569	0.000368
6320	1.507215	0.000368
5442	1.507776	0.000368
5474	1.506959	0.000368
7555	1.507326	0.000368
7882	1.507108	0.000368
8466	1.506159	0.000368
5851	1.507043	0.000368
6174	1.507296	0.000368
8063	1.507223	0.000368
8348	1.506839	0.000368
5085	1.507405	0.000368
8114	1.506942	0.000368
8798	1.506872	0.000368
8277	1.507325	0.000368
8412	1.506993	0.000368
5607	1.507086	0.000368
5978	1.507014	0.000368
7103	1.506511	0.000368
7313	1.507156	0.000368
8314	1.506625	0.000368
8634	1.507332	0.000368
9662	1.506813	0.000368
9686	1.507372	0.000368
7317	1.507081	0.000368
9883	1.507585	0.000368
6754	1.507422	0.000368
7442	1.506451	0.000368
9467	1.506773	0.000368
6561	1.507692	0.000368
8220	1.507465	0.000368
5420	1.507983	0.000368
5121	1.507614	0.000368
7690	1.507286	0.000368
7141	1.507068	0.000368
9279	1.506997	0.000368
8329	1.506750	0.000368
6812	1.507249	0.000368
9049	1.507558	0.000368
7942	1.506693	0.000368
7644	1.507289	0.000368
7823	1.507423	0.000368
9031	1.507465	0.000368
7913	1.507097	0.000368
9828	1.507238	0.000368
7187	1.506353	0.000368
5992	1.506845	0.000368
9535	1.506910	0.000368
8063	1.507380	0.000368
5039	1.507306	0.000368
5383	1.507316	0.000368
8814	1.507303	0.000368
6814	1.507549	0.000368
9727	1.506694	0.000368
6129	1.507098	0.000368
7443	1.506933	0.000368
7897	1.506979	0.000368
8305	1.507272	0.000368
6046	1.507191	0.000368
5364	1.507746	0.000368
8240	1.506883	0.000368
8416	1.507256	0.000368
8016	1.506667	0.000368
5866	1.507056	0.000368
9508	1.506746	0.000368
5107	1.507128	0.000368
9229	1.507146	0.000368
8498	1.507005	0.000368
7630	1.506955	0.000368
7761	1.507473	0.000368
9836	1.506966	0.000368
5662	1.506335	0.000368
7283	1.506783	0.000368
8930	1.507532	0.000368
9888	1.507264	0.000368
7777	1.507336	0.000368
9533	1.506553	0.000368
7677	1.507395	0.000368
8232	1.507613	0.000368
5434	1.506795	0.000368
7100	1.507214	0.000368
7338	1.507000	0.000368
7435	1.507164	0.000368
9974	1.507120	0.000368
8074	1.507056	0.000368
7421	1.507470	0.000368
9238	1.506975	0.000368
6103	1.506576	0.000368
5374	1.507414	0.000368
6101	1.507561	0.000368
5466	1.506915	0.000368
5499	1.507693	0.000368
6093	1.506745	0.000368
7120	1.506703	0.000368
8465	1.507191	0.000368
5135	1.507003	0.000368
6830	1.506880	0.000368
5221	1.506765	0.000368
9868	1.505773	0.000368
8814	1.506772	0.000368
9395	1.506817	0.000368
6437	1.507102	0.000368
5105	1.507572	0.000368
5864	1.507154	0.000368
6075	1.507786	0.000368
5533	1.507255	0.000368
9396	1.506657	0.000368
6113	1.507217	0.000368
6670	1.506370	0.000368
8172	1.507353	0.000368
5565	1.507909	0.000368
8028	1.506993	0.000368
8541	1.507500	0.000368
6697	1.506840	0.000368
7905	1.506610	0.000368
7476	1.507075	0.000368
8225	1.507317	0.000368
8163	1.507403	0.000368
8525	1.506389	0.000368
9365	1.506170	0.000368
5412	1.507440	0.000368
6295	1.507354	0.000368
5717	1.506353	0.000368
9325	1.507126	0.000368
8430	1.507152	0.000368
9006	1.506445	0.000368
5414	1.506816	0.000368
7991	1.507739	0.000368
9213	1.507654	0.000368
9260	1.507832	0.000368
5010	1.507009	0.000368
6583	1.506758	0.000368
7774	1.506884	0.000368
9920	1.506530	0.000368
5930	1.507123	0.000368
7151	1.506627	0.000368
6199	1.507469	0.000368
7052	1.507652	0.000368
8512	1.506637	0.000368
8203	1.507300	0.000368
5312	1.506957	0.000368
7053	1.506941	0.000368
8103	1.507050	0.000368
9069	1.506546	0.000368
5098	1.506844	0.000368
7512	1.507550	0.000368
5442	1.507251	0.000368
7628	1.507044	0.000368
9835	1.507538	0.000368
8226	1.507348	0.000368
8567	1.506664	0.000368
6948	1.507168	0.000368
8669	1.507122	0.000368
9812	1.506507	0.000368
9299	1.507105	0.000368
5744	1.506969	0.000368
6591	1.507142	0.000368
9817	1.507245	0.000368
7317	1.506772	0.000368
9826	1.507238	0.000368
5334	1.507144	0.000368
5257	1.507161	0.000368
8145	1.506905	0.000368
5445	1.506817	0.000368
7136	1.506715	0.000368
7018	1.507684	0.000368
6407	1.507713	0.000368
8523	1.506883	0.000368
9303	1.507084	0.000368
8661	1.506675	0.000368
9281	1.506620	0.000368
5209	1.507113	0.000368
6545	1.507375	0.000368
9442	1.505984	0.000368
9440	1.506519	0.000368
5496	1.506541	0.000368
6303	1.506698	0.000368
7235	1.507607	0.000368
8524	1.507260	0.000368
9716	1.506635	0.000368
7271	1.507080	0.000368
6072	1.507121	0.000368
8709	1.507110	0.000368
8206	1.506779	0.000368
5237	1.507227	0.000368
6364	1.506652	0.000368
6171	1.507666	0.000368
5535	1.507635	0.000368
5645	1.507140	0.000368
7286	1.507250	0.000368
5295	1.507667	0.000368
8613	1.506876	0.000368
9347	1.506949	0.000368
7874	1.506993	0.000368
9498	1.507085	0.000368
8649	1.506820	0.000368
9104	1.507372	0.000368
7963	1.507013	0.000368
7288	1.506828	0.000368
6533	1.506947	0.000368
8133	1.507451	0.000368
7015	1.507479	0.000368
7540	1.507286	0.000368
5454	1.506499	0.000368
9030	1.507605	0.000368
9089	1.506557	0.000368
6255	1.507947	0.000368
6599	1.506732	0.000368
8556	1.506426	0.000368
5540	1.507472	0.000368
7494	1.507310	0.000368
9092	1.506954	0.000368
9220	1.507329	0.000368
6349	1.507556	0.000368
7843	1.506916	0.000368
7097	1.507035	0.000368
7147	1.507071	0.000368
5842	1.506921	0.000368
8245	1.507221	0.000368
9498	1.507007	0.000368
8026	1.507080	0.000368
9800	1.506592	0.000368
7970	1.506806	0.000368
5077	1.507768	0.000368
9137	1.507097	0.000368
8111	1.507000	0.000368
9718	1.507289	0.000368
9184	1.507499	0.000368
9689	1.506887	0.000368
9779	1.506649	0.000368
7774	1.506677	0.000368
8714	1.507532	0.000368
7537	1.507166	0.000368
8974	1.506518	0.000368
6207	1.507326	0.000368
7392	1.506907	0.000368
7910	1.507087	0.000368
6013	1.507726	0.000368
5137	1.506801	0.000368
6581	1.507185	0.000368
6160	1.507484	0.000368
7971	1.507159	0.000368
6389	1.507173	0.000368
6394	1.507593	0.000368
9306	1.506461	0.000368
8812	1.507237	0.000368
7255	1.506963	0.000368
8070	1.507108	0.000368
7611	1.506950	0.000368
6181	1.507245	0.000368
9000	1.506792	0.000368
7269	1.507826	0.000368
5567	1.506666	0.000368
5832	1.506762	0.000368
8230	1.507268	0.000368
9751	1.506545	0.000368
8044	1.507145	0.000368
8592	1.506512	0.000368
5724	1.506979	0.000368
8170	1.507688	0.000368
5584	1.507589	0.000368
5473	1.507521	0.000368
6440	1.507198	0.000368
7519	1.507179	0.000368
9969	1.507439	0.000368
5987	1.506727	0.000368
9934	1.507360	0.000368
9462	1.506817	0.000368
7997	1.506576	0.000368
6246	1.507291	0.000368
8701	1.507195	0.000368
7542	1.507336	0.000368
6349	1.506801	0.000368
7160	1.507126	0.000368
8940	1.506969	0.000368
6572	1.507888	0.000368
8709	1.506354	0.000368
9403	1.507041	0.000368
8842	1.506453	0.000368
8314	1.507369	0.000368
8956	1.507423	0.000368
9840	1.507076	0.000368
9099	1.507279	0.000368
5893	1.507409	0.000368
6315	1.507471	0.000368
8360	1.507156	0.000368
9436	1.507176	0.000368
5436	1.507296	0.000368
5613	1.507151	0.000368
9478	1.506897	0.000368
7691	1.507161	0.000368
5751	1.507387	0.000368
6110	1.506774	0.000368
9607	1.507429	0.000368
7482	1.507008	0.000368
6508	1.506825	0.000368
5529	1.507248	0.000368
7319	1.507723	0.000368
6653	1.507154	0.000368
8554	1.506525	0.000368
8650	1.506945	0.000368
5313	1.507029	0.000368
9745	1.507180	0.000368
9176	1.506634	0.000368
6714	1.506924	0.000368
8204	1.507404	0.000368
9125	1.507163	0.000368
6791	1.506707	0.000368
9978	1.507192	0.000368
5991	1.507153	0.000368
6918	1.507448	0.000368
8319	1.506967	0.000368
8835	1.506819	0.000368
6352	1.507464	0.000368
8066	1.506678	0.000368
9003	1.506409	0.000368
6129	1.507300	0.000368
9774	1.506655	0.000368
7231	1.507262	0.000368
6486	1.506833	0.000368
7743	1.507025	0.000368
5939	1.507394	0.000368
8130	1.506586	0.000368
8572	1.507022	0.000368
8213	1.507236	0.000368
6163	1.508190	0.000368
5733	1.507196	0.000368
6770	1.507220	0.000368
8505	1.506843	0.000368
8068	1.506645	0.000368
7943	1.507302	0.000368
6980	1.506940	0.000368
5667	1.507071	0.000368
8730	1.507065	0.000368
5927	1.507324	0.000368
6793	1.507290	0.000368
9945	1.507609	0.000368
6657	1.507188	0.000368
8172	1.508157	0.000368
6681	1.506938	0.000368
8395	1.507049	0.000368
7287	1.507077	0.000368
9539	1.506650	0.000368
9744	1.507392	0.000368
6327	1.506468	0.000368
5922	1.507515	0.000368
9206	1.507489	0.000368
9899	1.506413	0.000368
5583	1.506717	0.000368
9810	1.506285	0.000368
5721	1.507623	0.000368
7568	1.507630	0.000368
7689	1.506984	0.000368
5722	1.507166	0.000368
5478	1.507111	0.000368
8302	1.507094	0.000368
8929	1.506671	0.000368
5478	1.507770	0.000368
5848	1.506915	0.000368
5345	1.507444	0.000368
5740	1.507304	0.000368
5570	1.507481	0.000368
5415	1.507136	0.000368
5219	1.507527	0.000368
5542	1.507439	0.000368
9983	1.506236	0.000368
8516	1.506957	0.000368
9000	1.507235	0.000368
8471	1.506879	0.000368
9278	1.506895	0.000368
6749	1.506095	0.000368
5137	1.507205	0.000368
5919	1.507315	0.000368
5582	1.507678	0.000368
7294	1.506566	0.000368
7612	1.507058	0.000368
7732	1.507152	0.000368
9813	1.506937	0.000368
5514	1.507290	0.000368
9945	1.506813	0.000368
9679	1.506741	0.000368
6138	1.506918	0.000368
8102	1.506270	0.000368
7116	1.507323	0.000368
7010	1.507300	0.000368
5385	1.506597	0.000368
8023	1.506733	0.000368
9219	1.506500	0.000368
8362	1.507254	0.000368
8953	1.507450	0.000368
9736	1.507244	0.000368
7578	1.507094	0.000368
6365	1.507766	0.000368
8219	1.506654	0.000368
5209	1.507186	0.000368
8225	1.506587	0.000368
8082	1.506545	0.000368
7090	1.506781	0.000368
7250	1.507140	0.000368
8726	1.506977	0.000368
7380	1.507324	0.000368
6489	1.507105	0.000368
8021	1.507636	0.000368
9442	1.506871	0.000368
5697	1.507030	0.000368
6959	1.507079	0.000368
5591	1.507167	0.000368
7987	1.507061	0.000368
5515	1.507070	0.000368
7368	1.507458	0.000368
6278	1.507426	0.000368
9862	1.507129	0.000368
9846	1.506906	0.000368
9784	1.507007	0.000368
7877	1.506225	0.000368
5261	1.507353	0.000368
5832	1.507193	0.000368
8667	1.507181	0.000368
7033	1.506949	0.000368
8620	1.506713	0.000368
6266	1.507861	0.000368
9996	1.507364	0.000368
8553	1.506701	0.000368
6751	1.507049	0.000368
5746	1.506748	0.000368
6631	1.507046	0.000368
6415	1.507390	0.000368
9005	1.508053	0.000368
8587	1.507145	0.000368
7995	1.507351	0.000368
8339	1.506929	0.000368
9704	1.506647	0.000368
8314	1.506557	0.000368
5472	1.507333	0.000368
9367	1.507344	0.000368
6059	1.507233	0.000368
7230	1.507332	0.000368
7909	1.506812	0.000368
8791	1.506322	0.000368
5215	1.507515	0.000368
7769	1.507532	0.000368
5055	1.507052	0.000368
6284	1.506916	0.000368
7101	1.507116	0.000368
8317	1.506921	0.000368
5694	1.507483	0.000368
9581	1.506764	0.000368
6699	1.507063	0.000368
7429	1.507269	0.000368
9487	1.506439	0.000368
7635	1.507280	0.000368
8487	1.506486	0.000368
9918	1.507619	0.000368
7717	1.506723	0.000368
8139	1.506412	0.000368
8756	1.506576	0.000368
6733	1.507485	0.000368
6600	1.506625	0.000368
8550	1.507666	0.000368
9583	1.507294	0.000368
8729	1.507819	0.000368
6247	1.507198	0.000368
7359	1.506392	0.000368
9201	1.507254	0.000368
5758	1.507461	0.000368
6885	1.506641	0.000368
8500	1.507493	0.000368
5043	1.507213	0.000368
5743	1.507507	0.000368
5300	1.506946	0.000368
6058	1.507444	0.000368
5353	1.507301	0.000368
6896	1.507302	0.000368
9251	1.507087	0.000368
5346	1.507013	0.000368
9268	1.506870	0.000368
7908	1.506795	0.000368
9924	1.506873	0.000368
5419	1.507376	0.000368
8729	1.506977	0.000368
6903	1.507370	0.000368
9394	1.506793	0.000368
8653	1.507004	0.000368
8132	1.506711	0.000368
6855	1.507558	0.000368
9645	1.506695	0.000368
9294	1.506672	0.000368
8101	1.506508	0.000368
7287	1.506474	0.000368
8774	1.506885	0.000368
7565	1.506707	0.000368
6022	1.507458	0.000368
8882	1.507403	0.000368
6921	1.507198	0.000368
9864	1.506554	0.000368
7045	1.506880	0.000368
7243	1.507443	0.000368
5584	1.507393	0.000368
8246	1.507453	0.000368
6442	1.506727	0.000368
6789	1.506978	0.000368
6585	1.507758	0.000368
9877	1.506815	0.000368
9828	1.506933	0.000368
9523	1.507018	0.000368
7491	1.506989	0.000368
5263	1.507552	0.000368
6739	1.507530	0.000368
9087	1.507444	0.000368
7956	1.506897	0.000368
5188	1.507618	0.000368
6456	1.506679	0.000368
9515	1.507187	0.000368
9427	1.507170	0.000368
6744	1.507077	0.000368
6808	1.507397	0.000368
9848	1.506761	0.000368
7916	1.507459	0.000368
5273	1.507099	0.000368
7778	1.506624	0.000368
7663	1.507154	0.000368
7223	1.506951	0.000368
7023	1.506758	0.000368
9734	1.506697	0.000368
8438	1.507632	0.000368
7867	1.507108	0.000368
7325	1.506873	0.000368
9053	1.507049	0.000368
7063	1.507471	0.000368
7372	1.506181	0.000368
5896	1.506748	0.000368
5784	1.507718	0.000368
5749	1.507589	0.000368
7279	1.507308	0.000368
9498	1.507432	0.000368
6763	1.507346	0.000368
5600	1.506822	0.000368
5535	1.507238	0.000368
9749	1.506975	0.000368
9720	1.506257	0.000368
5116	1.507757	0.000368
6060	1.507701	0.000368
6930	1.507720	0.000368
6048	1.507233	0.000368
7506	1.507008	0.000368
6590	1.506945	0.000368
8414	1.506785	0.000368
5190	1.507444	0.000368
8575	1.506939	0.000368
8684	1.506428	0.000368
6212	1.506547	0.000368
8082	1.507348	0.000368
8774	1.506933	0.000368
5903	1.507137	0.000368
7412	1.507085	0.000368
6908	1.506934	0.000368
6368	1.506774	0.000368
9137	1.506880	0.000368
6328	1.506836	0.000368
6020	1.507561	0.000368
7742	1.507225	0.000368
6674	1.507485	0.000368
5122	1.506953	0.000368
9386	1.507201	0.000368
8656	1.506738	0.000368
6328	1.507153	0.000368
6268	1.507530	0.000368
6483	1.507416	0.000368
6154	1.507256	0.000368
7712	1.507170	0.000368
7699	1.507684	0.000368
5367	1.506775	0.000368
6726	1.507270	0.000368
8886	1.507241	0.000368
6524	1.507054	0.000368
8162	1.506499	0.000368
7156	1.507110	0.000368
9039	1.506213	0.000368
6679	1.506610	0.000368
6243	1.507120	0.000368
9931	1.506801	0.000368
7347	1.507100	0.000368
8919	1.506880	0.000368
6816	1.507512	0.000368
5856	1.507578	0.000368
7771	1.507043	0.000368
6029	1.506624	0.000368
5998	1.507203	0.000368
7567	1.506533	0.000368
8503	1.506754	0.000368
7479	1.507169	0.000368
5769	1.507347	0.000368
8992	1.506437	0.000368
9336	1.507243	0.000368
7903	1.506906	0.000368
8776	1.506950	0.000368
7048	1.506789	0.000368
8499	1.506788	0.000368
9257	1.506880	0.000368
5569	1.506877	0.000368
5993	1.506910	0.000368
6493	1.506759	0.000368
7309	1.507122	0.000368
8190	1.506783	0.000368
9625	1.507441	0.000368
7823	1.508052	0.000368
8144	1.507085	0.000368
8409	1.506745	0.000368
6086	1.507040	0.000368
9653	1.506955	0.000368
9195	1.506898	0.000368
9497	1.506955	0.000368
5946	1.507381	0.000368
6464	1.506832	0.000368
6928	1.506491	0.000368
5994	1.507136	0.000368
6859	1.507117	0.000368
5349	1.507161	0.000368
5603	1.507278	0.000368
7669	1.506271	0.000368
5484	1.507473	0.000368
5933	1.507322	0.000368
6676	1.507524	0.000368
9569	1.507419	0.000368
7610	1.507300	0.000368
5567	1.508177	0.000368
8179	1.507078	0.000368
9412	1.507073	0.000368
5628	1.507777	0.000368
8568	1.507009	0.000368
6344	1.506879	0.000368
6334	1.506837	0.000368
7810	1.507276	0.000368
5790	1.506780	0.000368
9973	1.507085	0.000368
6912	1.507000	0.000368
6313	1.507172	0.000368
6109	1.507376	0.000368
8126	1.507697	0.000368
8453	1.507453	0.000368
5204	1.506555	0.000368
8494	1.507245	0.000368
5968	1.507086	0.000368
7414	1.507411	0.000368
6661	1.507788	0.000368
5727	1.506972	0.000368
7138	1.507407	0.000368
8676	1.507865	0.000368
7719	1.507205	0.000368
6364	1.506661	0.000368
6044	1.505985	0.000368
8852	1.507010	0.000368
8755	1.507414	0.000368
7100	1.506731	0.000368
9359	1.507340	0.000368
7186	1.507474	0.000368
9966	1.507170	0.000368
5540	1.507318	0.000368
8396	1.506780	0.000368
7333	1.506439	0.000368
9178	1.506921	0.000368
8001	1.507636	0.000368
5818	1.507109	0.000368
8124	1.507144	0.000368
5501	1.506865	0.000368
5398	1.506819	0.000368
5889	1.507199	0.000368
8292	1.507011	0.000368
9351	1.507063	0.000368
5605	1.506810	0.000368
8764	1.507199	0.000368
5658	1.507335	0.000368
8926	1.506978	0.000368
5648	1.507892	0.000368
5641	1.507527	0.000368
8630	1.507381	0.000368
6231	1.506571	0.000368
5691	1.506973	0.000368
8351	1.506800	0.000368
6107	1.506708	0.000368
6394	1.507669	0.000368
8264	1.507136	0.000368
9795	1.505968	0.000368
8041	1.506903	0.000368
